File: dataset_2(cleaned).csv
index,pos,block_num,PEDOT_spd,PEDOT_rt,Grid_rt,Electrode_dep_T,Electrode_anneal_T,Grid_anneal_T,Electrode_amb_dep_T,Electrode_dep_humidity,DD_S315,DD_PV416,DD_PGMEA,T_air_Grid,Grid_Dep_Humidity,Web_speed_Grid,Web_speed_Active,Flow0_Active,Flow1_Active,Flow2_Active,Active_layer_Head_T,Active_layer_annealing_T,Active_layer2_annealing_T,Active_amb_dep_T,Active_humid,DD_DCB,DD_Y6,DD_PD10,Web_speed_ETL,Flow0_ETL,T_heater1_ETL,T_heater2_ETL,T_air_ETL,Humidity_ETL,DD_IPA,DD_ZnO,TDD of active,Donor fraction,voc,jsc,ff,pce
0,5,1,600,200,0.3,59.99,139.99,130,24.54,49.75,6666.67,3000,2000,24.54,49.75,600,300,40,0,0,74.81,32.58,130,24.6,47.69,1333.33,16,10.6667,300,15,129.98,130.01,26.59,42.3,500,14,26.6667,0.4,0,-7.15095,0,0.3858
61,330,2,600,200,0.3,60,139.98,130,24.54,49.75,6666.67,3000,2000,24.54,49.75,600,300,40,0,0,89.16,60.16,130.04,24.58,47.63,1333.33,16,10.6667,300,15,129.97,129.997,26.57,42.41,500,14,26.6667,0.4,0.69466,-14.9763,38.4782,4.00306
122,675,4,600,200,0.3,60.025,140.03,129.977,24.56,49.75,6666.67,3000,2000,24.56,49.75,600,300,40,0,0,91.305,89.04,129.99,24.6,47.56,1333.33,16,10.6667,300,15,130.01,129.985,26.435,42.74,500,14,26.6667,0.4,0.649928,-16.6577,52.3668,5.6694
183,1000,5,600,200,0.3,59.9933,140.013,130.027,24.58,49.64,6666.67,3000,2000,24.58,49.64,600,300,40,0,0,90.92,113.497,130.017,24.62,47.52,1333.33,16,10.6667,300,15,129.943,129.987,26.37,42.75,500,14,26.6667,0.4,0.686329,-15.5584,48.0471,5.13055
244,1345,7,600,200,0.3,59.9733,139.982,129.992,24.62,49.58,6666.67,3000,2000,24.62,49.58,600,300,40,0,0,90.3867,130.823,129.972,24.58,47.515,1333.33,16,10.6667,300,15,130.012,129.99,26.3217,42.715,500,14,26.6667,0.4,0.700687,-13.8801,49.1241,4.77761
305,1670,8,600,200,0.3,60.0233,140.02,130.01,24.6233,49.51,6666.67,3000,2000,24.6233,49.51,600,300,40,0,0,91.17,129.993,130.023,24.5733,47.52,1333.33,16,10.6667,300,15,129.98,130,26.27,42.74,500,14,26.6667,0.4,0.72536,-17.4567,62.3188,7.89105
366,2015,10,600,200,0.3,59.9983,139.983,130.01,24.63,49.475,6666.67,3000,2000,24.63,49.475,600,300,79.7429,0,0,90.59,130.005,129.992,24.5833,47.68,2658.1,31.8971,21.2648,300,15,130.033,129.99,26.1683,42.7667,500,14,53.1619,0.4,0.720833,-16.6059,61.1418,7.31871
427,2340,11,600,200,0.3,60.01,139.97,130.013,24.65,49.41,6666.67,3000,2000,24.65,49.41,600,300,74.1714,0,0,90.05,130,130.02,24.56,47.56,2472.38,29.6686,19.779,300,15,130.02,130,26.08,43.03,500,14,49.4476,0.4,0.313372,-16.0399,28.9448,1.45489
488,2685,13,600,200,0.3,59.98,139.985,129.945,24.66,49.32,6666.67,3000,2000,24.66,49.32,600,300,68.2571,0,0,91.175,130.01,130.01,24.565,47.63,2275.24,27.3029,18.2019,300,15,130.005,129.91,26.02,43.125,500,14,45.5048,0.4,0.739113,-18.3429,55.1791,7.48091
549,3010,14,600,200,0.3,60.02,140.037,130.003,24.66,49.31,6666.67,3000,2000,24.66,49.31,600,300,62.6857,0,0,91.8433,130.03,130.053,24.5767,47.57,2089.52,25.0743,16.7162,300,15,130.01,130.023,25.98,43.14,500,14,41.7905,0.4,0.341161,-17.3152,27.7426,1.63883
610,3355,16,600,200,0.3,60.0183,139.978,130.003,24.6417,49.22,6666.67,3000,2000,24.6417,49.22,600,300,56.7714,0,0,93.99,130.003,129.99,24.5417,47.785,1892.38,22.7086,15.139,300,15,130.007,130.003,25.8833,43.345,500,14,37.8476,0.4,0.712536,-18.4656,58.3512,7.6775
671,3680,17,600,200,0.3,60.0033,140.05,130.01,24.63,49.25,6666.67,3000,2000,24.63,49.25,600,300,51.2,0,0,89.8933,129.987,130.017,24.54,47.9167,1706.67,20.48,13.6533,300,15,129.987,130.03,25.8133,43.35,500,14,34.1333,0.4,0.721861,-17.9201,62.0434,8.02583
732,4025,19,600,200,0.3,59.99,140.017,130.055,24.62,49.35,6666.67,3000,2000,24.62,49.35,600,300,45.2857,0,0,90.2567,129.987,130,24.53,48.06,1509.52,18.1143,12.0762,300,15,130.022,130.005,25.7383,43.52,500,14,30.1905,0.4,0.719261,-18.3032,58.6403,7.71986
793,4350,20,600,200,0.3,60.01,139.94,129.927,24.62,49.38,6666.67,3000,2000,24.62,49.38,600,300,39.7143,0,0,91.08,130.02,129.98,24.55,48.29,1323.81,15.8857,10.5905,300,15,129.99,130.027,25.65,43.66,500,14,26.4762,0.4,0.710919,-16.7149,46.2439,5.49514
854,4695,22,600,200,0.3,60.025,140.055,130.035,24.62,49.235,6666.67,3000,2000,24.62,49.235,600,300,33.8,0,0,90.1,129.995,130.025,24.59,48.4,1126.67,13.52,9.01333,300,15,129.965,129.983,25.59,43.86,500,14,22.5333,0.4,0.728682,-16.3433,63.9991,7.62168
915,5020,23,600,200,0.3,59.9833,139.96,130.003,24.63,49.0767,6666.67,3000,2000,24.63,49.0767,600,300,28.2286,0,0,92.2633,130.003,129.983,24.62,48.45,940.952,11.2914,7.52762,300,15,130,129.993,25.5067,44.08,500,14,18.819,0.4,0.727228,-16.443,61.6799,7.37557
976,5365,25,600,200,0.3,59.9683,140.007,129.99,24.6217,49.09,6666.67,3000,2000,24.6217,49.09,600,300,22.3143,0,0,92.1567,130.027,130.028,24.6583,48.42,743.81,8.92571,5.95048,300,15,130.022,129.997,25.4117,44.355,500,14,14.8762,0.4,0.726925,-14.1965,65.3934,6.74844
1037,5690,26,600,200,0.3,60.0067,139.98,130,24.6133,49,6666.67,3000,2000,24.6133,49,600,300,16.7429,0,0,90.0567,130.02,130.007,24.6667,48.57,558.095,6.69714,4.46476,300,15,130.033,130,25.3733,44.57,500,14,11.1619,0.4,0.714326,-12.378,58.4551,5.16854
1098,6035,28,600,200,0.3,59.9933,139.987,129.975,24.61,48.995,6666.67,3000,2000,24.61,48.995,600,300,10.8286,0,0,90.305,129.985,130.022,24.68,48.55,360.952,4.33143,2.88762,300,15,129.98,129.98,25.3,44.68,500,14,7.21905,0.4,0.700768,-9.50948,56.107,3.73894
1159,6360,29,600,200,0.3,60,140,129.98,24.61,49.02,6666.67,3000,2000,24.61,49.02,600,300,59.2,6.4,0,90.53,130.01,130,24.68,48.55,2186.67,26.88,16.8533,300,15,130.04,130.033,25.25,45.14,500,14,43.7333,0.385366,0.307681,-8.74493,29.5611,0.795387
1220,6705,31,600,200,0.3,59.985,140,130.028,24.58,49.07,6666.67,3000,2000,24.58,49.07,600,300,67.2943,7.47714,0,90.45,129.995,129.97,24.65,48.52,2492.38,30.6563,19.1913,300,15,130.02,129.982,25.19,44.99,500,14,49.8476,0.385,0.385215,-17.2628,26.6678,1.77338
1281,7050,33,600,200,0.3,59.97,139.96,130,24.57,49.05,6666.67,3000,2000,24.57,49.05,600,300,61.9714,6.88571,0,92.87,130,130.02,24.64,48.55,2295.24,28.2314,17.6733,300,15,130.04,130.01,25.15,45.35,500,14,45.9048,0.385,0.712064,-13.4334,49.0121,4.68822
1342,7375,34,600,200,0.3,59.985,140.03,129.99,24.5683,49.115,6666.67,3000,2000,24.5683,49.115,600,300,56.9571,6.32857,0,92.7983,129.99,130.057,24.61,48.55,2109.52,25.9471,16.2433,300,15,129.973,130.007,25.12,45.45,500,14,42.1905,0.385,0.72548,-14.424,61.1003,6.39372
1403,7720,36,600,200,0.3,59.9933,139.997,130.01,24.57,49.14,6666.67,3000,2000,24.57,49.14,600,300,51.6343,5.73714,0,91.61,129.977,129.92,24.5567,48.62,1912.38,23.5223,14.7253,300,15,129.953,130.007,25.1167,45.75,500,14,38.2476,0.385,0.722926,-13.2633,68.7854,6.59542
1464,8045,37,600,200,0.3,60.0183,139.973,130.005,24.58,49.34,6666.67,3000,2000,24.58,49.34,600,300,46.62,5.18,0,92.4383,129.987,130.055,24.53,48.8083,1726.67,21.238,13.2953,300,15,129.985,130.045,25.1,45.78,500,14,34.5333,0.385,0.719237,-16.6169,52.0278,6.21809
1525,8390,39,600,200,0.3,60,140.027,130,24.61,49.05,6666.67,3000,2000,24.61,49.05,600,300,41.2971,4.58857,0,92.5733,130.02,130.017,24.53,48.78,1529.52,18.8131,11.7773,300,15,129.973,130,25.07,45.84,500,14,30.5905,0.385,0.289862,-17.0628,29.2035,1.44437
1586,8715,40,600,200,0.3,60.015,139.98,130.018,24.6,48.89,6666.67,3000,2000,24.6,48.89,600,300,36.2829,4.03143,0,91.3,130.02,130.025,24.52,48.69,1343.81,16.5289,10.3473,300,15,130.02,130.018,25.04,46.025,500,14,26.8762,0.385,0.719554,-16.657,60.431,7.24303
1647,9060,42,600,200,0.3,60,139.99,129.99,24.6,48.82,6666.67,3000,2000,24.6,48.82,600,300,30.96,3.44,0,92.46,130.05,129.94,24.53,48.69,1146.67,14.104,8.82933,300,15,130,129.99,24.99,46.05,500,14,22.9333,0.385,0.724176,-16.4114,65.1143,7.73867
1708,9385,43,600,200,0.3,60.0483,140.002,129.985,24.6,48.85,6666.67,3000,2000,24.6,48.85,600,300,25.9457,2.88286,0,93.5933,129.978,130,24.53,48.62,960.952,11.8197,7.39933,300,15,130.007,130.008,24.97,46.2083,500,14,19.219,0.385,0.725101,-14.6272,66.1042,7.01113
1769,9730,45,600,200,0.3,59.9933,139.967,130.03,24.62,48.82,6666.67,3000,2000,24.62,48.82,600,300,20.6229,2.29143,0,90.74,129.997,130.097,24.56,48.6067,763.81,9.39486,5.88133,300,15,129.997,129.997,24.9367,46.18,500,14,15.2762,0.385,0.731378,-14.743,59.2091,6.38432
1830,10055,46,600,200,0.3,59.9667,139.988,129.99,24.63,48.715,6666.67,3000,2000,24.63,48.715,600,300,15.6086,1.73429,0,91.6633,129.967,130.027,24.56,48.52,578.095,7.11057,4.45133,300,15,130.058,130.015,24.9,46.2317,500,14,11.5619,0.385,0.716987,-12.3156,51.8578,4.5791
1891,10400,48,600,200,0.3,59.9633,140.03,129.99,24.64,48.91,6666.67,3000,2000,24.64,48.91,600,300,10.2857,1.14286,0,89.84,130,130.02,24.57,48.48,380.952,4.68571,2.93333,300,15,129.92,130,24.85,46.29,500,14,7.61905,0.385,0.48966,-9.38655,31.3136,1.43924
1952,10725,49,600,200,0.3,60.01,140.005,130.022,24.67,48.88,6666.67,3000,2000,24.67,48.88,600,300,42.7,10.3,0,91.055,129.985,129.97,24.54,48.48,1766.67,22.23,13.1033,300,15,129.95,130.028,24.82,46.47,500,14,35.3333,0.370849,0.258033,-9.08504,26.2337,0.614979
2013,11070,51,600,200,0.3,60.01,140.02,130,24.68,49.07,6666.67,3000,2000,24.68,49.07,600,300,60.2971,15.0743,0,91.14,130.01,129.98,24.52,48.55,2512.38,31.656,18.5916,300,15,129.99,130.013,24.79,46.45,500,14,50.2476,0.37,0.697243,-13.0491,34.9021,3.17552
2074,11395,52,600,200,0.3,60.0233,140.003,130.008,24.6983,49.045,6666.67,3000,2000,24.6983,49.045,600,300,55.84,13.96,0,90.84,129.97,130.075,24.49,48.62,2326.67,29.316,17.2173,300,15,129.942,130.017,24.7517,46.6783,500,14,46.5333,0.37,0.702141,-18.3908,49.8533,6.43754
2135,11740,54,600,200,0.3,60.0067,139.973,130.013,24.69,48.76,6666.67,3000,2000,24.69,48.76,600,300,51.1086,12.7771,0,91.9367,129.99,129.963,24.48,48.63,2129.52,26.832,15.7585,300,15,129.943,129.973,24.71,46.65,500,14,42.5905,0.37,0.697482,-17.9343,42.8227,5.35662
2196,12065,55,600,200,0.3,59.9933,139.993,129.99,24.67,48.58,6666.67,3000,2000,24.67,48.58,600,300,46.6514,11.6629,0,91.9783,130.018,129.948,24.4583,48.66,1943.81,24.492,14.3842,300,15,129.942,130.005,24.6983,46.72,500,14,38.8762,0.37,0.705933,-19.3646,52.6012,7.19066
2257,12410,57,600,200,0.3,60.0067,140.013,129.97,24.6533,48.71,6666.67,3000,2000,24.6533,48.71,600,300,41.92,10.48,0,91.6833,130.01,129.96,24.45,48.7,1746.67,22.008,12.9253,300,15,130.017,130,24.65,46.8,500,14,34.9333,0.37,0.71527,-18.2223,61.7306,8.04587
2318,12735,58,600,200,0.3,60.025,139.995,130.003,24.64,48.935,6666.67,3000,2000,24.64,48.935,600,300,37.4629,9.36571,0,92.19,130,129.96,24.475,48.6,1560.95,19.668,11.551,300,15,130.015,129.983,24.635,46.8,500,14,31.219,0.37,0.716499,-17.2257,63.418,7.82717
2379,13080,60,600,200,0.3,59.97,140.03,129.983,24.65,49.22,6666.67,3000,2000,24.65,49.22,600,300,32.7314,8.18286,0,90.29,129.98,130.06,24.46,48.56,1363.81,17.184,10.0922,300,15,130,129.997,24.61,46.9,500,14,27.2762,0.37,0.724293,-16.7655,63.0528,7.65659
2440,13425,62,600,200,0.3,59.99,139.975,129.995,24.68,48.975,6666.67,3000,2000,24.68,48.975,600,300,28,7,0,90.775,130.01,130.02,24.43,48.645,1166.67,14.7,8.63333,300,15,130.005,130,24.57,46.95,500,14,23.3333,0.37,0.727121,-16.1262,66.81,7.83393
2501,13750,63,600,200,0.3,59.9967,139.997,130.017,24.71,48.6967,6666.67,3000,2000,24.71,48.6967,600,300,23.5429,5.88571,0,90.6533,130.003,129.967,24.41,48.83,980.952,12.36,7.25905,300,15,129.957,130.017,24.56,47,500,14,19.619,0.37,0.729752,-15.4928,63.0963,7.13361
2562,14095,65,600,200,0.3,60,139.987,129.987,24.76,48.66,6666.67,3000,2000,24.76,48.66,600,300,18.8114,4.70286,0,92.3383,130.035,130,24.4467,48.93,783.81,9.876,5.80019,300,15,129.975,129.975,24.5483,47.235,500,14,15.6762,0.37,0.411699,-13.7691,28.1812,1.59752
2623,14420,66,600,200,0.3,60,140.007,129.98,24.79,48.5,6666.67,3000,2000,24.79,48.5,600,300,14.3543,3.58857,0,90.2433,129.993,129.99,24.4767,48.96,598.095,7.536,4.4259,300,15,129.97,129.99,24.5333,47.19,500,14,11.9619,0.37,0.605655,-12.3226,50.9132,3.79978
2684,14765,68,600,200,0.3,60.0117,139.972,130.005,24.8083,48.55,6666.67,3000,2000,24.8083,48.55,600,300,9.62286,2.40571,0,90.225,129.972,129.945,24.49,49.19,400.952,5.052,2.96705,300,15,129.99,129.965,24.5183,47.19,500,14,8.01905,0.37,0.717528,-11.0498,60.5359,4.79963
2745,15090,69,600,200,0.3,60.03,140.05,129.993,24.81,48.77,6666.67,3000,2000,24.81,48.77,600,300,25.12,15.28,0,92.26,129.97,129.99,24.48,49.35,1346.67,17.688,9.24533,300,15,130.02,130.013,24.51,47.23,500,14,26.9333,0.343267,0,-7.10108,0,0.176524
2809,15450,71,600,200,0.3,59.91,139.91,130,24.81,48.25,6666.67,3000,2000,24.81,48.25,600,300,45.4286,30.2857,0,89.69,130.01,130.08,24.5,49.45,2523.81,33.3143,17.1619,300,15,129.96,130,24.5,47.16,500,14,50.4762,0.34,0.690039,-17.5177,43.9589,5.3137
2870,15775,72,600,200,0.3,59.9917,140.02,129.962,24.8,48.255,6666.67,3000,2000,24.8,48.255,600,300,42.0857,28.0571,0,90.5067,129.977,130.037,24.4883,49.45,2338.1,30.8629,15.899,300,15,130.04,130.047,24.49,47.13,500,14,46.7619,0.34,0.704939,-18.5032,49.9011,6.5089
2931,16120,74,600,200,0.3,60.0033,140.007,130.027,24.79,48.51,6666.67,3000,2000,24.79,48.51,600,300,38.5371,25.6914,0,90.0867,130.003,130.01,24.47,49.49,2140.95,28.2606,14.5585,300,15,129.963,129.99,24.48,47.07,500,14,42.819,0.34,0.701187,-19.1421,52.1492,6.99957
2992,16445,75,600,200,0.3,60.045,140.012,129.965,24.77,48.5167,6666.67,3000,2000,24.77,48.5167,600,300,35.1943,23.4629,0,90.1117,130.015,129.902,24.48,49.62,1955.24,25.8091,13.2956,300,15,130.03,129.99,24.4683,47.07,500,14,39.1048,0.34,0.711322,-17.1411,39.2492,4.78558
3053,16790,77,600,200,0.3,60.02,139.983,130.02,24.78,48.82,6666.67,3000,2000,24.78,48.82,600,300,31.6457,21.0971,0,94.19,129.97,129.957,24.49,49.5533,1758.1,23.2069,11.955,300,15,129.973,129.96,24.4233,47.03,500,14,35.1619,0.34,0.705497,-18.2394,58.2067,7.48993
3114,17115,78,600,200,0.3,59.96,140.03,129.995,24.775,48.25,6666.67,3000,2000,24.775,48.25,600,300,28.3029,18.8686,0,92.635,130,129.975,24.515,49.58,1572.38,20.7554,10.6922,300,15,129.985,130.003,24.38,47.115,500,14,31.4476,0.34,0.712491,-18.1548,58.6269,7.58345
3175,17460,80,600,200,0.3,59.99,139.93,130.013,24.77,48.15,6666.67,3000,2000,24.77,48.15,600,300,24.7543,16.5029,0,90.71,130.02,130.03,24.54,49.51,1375.24,18.1531,9.35162,300,15,130.02,129.997,24.35,47.17,500,14,27.5048,0.34,0.705731,-17.4006,58.8993,7.2329
3236,17785,81,600,200,0.3,59.9617,139.98,129.995,24.75,48.0867,6666.67,3000,2000,24.75,48.0867,600,300,21.4114,14.2743,0,93.7033,130.027,129.998,24.54,49.38,1189.52,15.7017,8.08876,300,15,129.98,129.992,24.3317,47.23,500,14,23.7905,0.34,0.7197,-16.6118,62.2924,7.44737
3297,18130,83,600,200,0.3,59.97,139.983,129.997,24.75,48.0367,6666.67,3000,2000,24.75,48.0367,600,300,17.8629,11.9086,0,94.06,130.013,130.01,24.52,49.32,992.381,13.0994,6.74819,300,15,130.017,129.993,24.27,47.19,500,14,19.8476,0.34,0.683053,-14.6825,44.0909,4.42184
3358,18455,84,600,200,0.3,59.9717,139.978,129.995,24.76,48.0167,6666.67,3000,2000,24.76,48.0167,600,300,14.52,9.68,0,90.7117,130.003,130.045,24.5117,49.35,806.667,10.648,5.48533,300,15,130,129.995,24.24,47.25,500,14,16.1333,0.34,0.38805,-13.0918,37.236,1.89169
3419,18800,86,600,200,0.3,59.98,140.047,130.01,24.75,47.94,6666.67,3000,2000,24.75,47.94,600,300,10.9714,7.31429,0,90.98,129.997,130.003,24.57,49.1633,609.524,8.04571,4.14476,300,15,130.05,130.01,24.22,47.56,500,14,12.1905,0.34,0.73889,-12.7539,57.238,5.39394
3480,19145,88,600,200,0.3,60.0167,140.013,130.01,24.71,48.05,6666.67,3000,2000,24.71,48.05,600,300,7.42286,4.94857,0,91.6217,129.97,129.987,24.58,49.02,412.381,5.44343,2.80419,300,15,130.03,129.97,24.19,47.6567,500,14,8.24762,0.34,0.707448,-11.129,45.3942,3.57396
3541,19470,89,600,200,0.3,59.99,139.97,130,24.71,48.12,6666.67,3000,2000,24.71,48.12,600,300,14.32,18.88,0,90.28,130.01,129.96,24.56,48.95,1106.67,15.168,6.96533,300,15,129.96,129.973,24.17,47.77,500,14,22.1333,0.314699,0.330978,-9.80073,26.7096,0.866415
3602,19815,91,600,200,0.3,59.975,140.005,129.997,24.69,48.15,6666.67,3000,2000,24.69,48.15,600,300,30.5257,45.7886,0,90.395,129.995,129.98,24.515,48.95,2543.81,35.1046,15.7716,300,15,129.97,129.892,24.155,47.77,500,14,50.8762,0.31,0.688322,-17.3714,44.5192,5.3232
3663,20140,92,600,200,0.3,60.0033,139.983,129.997,24.68,48.25,6666.67,3000,2000,24.68,48.25,600,300,28.2971,42.4457,0,90.42,130.01,130.01,24.45,49.06,2358.1,32.5417,14.6202,300,15,129.99,129.993,24.1233,47.85,500,14,47.1619,0.31,0.703158,-17.862,36.1764,4.54368
3724,20485,94,600,200,0.3,59.9583,139.977,129.988,24.65,48.16,6666.67,3000,2000,24.65,48.16,600,300,25.9314,38.8971,0,89.985,129.997,130.01,24.3983,49.09,2160.95,29.8211,13.3979,300,15,130.007,130.015,24.13,47.93,500,14,43.219,0.31,0.687479,-18.366,45.8207,5.78545
3785,20810,95,600,200,0.3,60.04,140.037,129.99,24.6233,48.22,6666.67,3000,2000,24.6233,48.22,600,300,23.7029,35.5543,0,90.11,130.013,129.92,24.4,49.21,1975.24,27.2583,12.2465,300,15,130.027,129.99,24.1367,47.93,500,14,39.5048,0.31,0.697369,-18.5923,49.5854,6.42909
3846,21155,97,600,200,0.3,60.005,139.962,130.02,24.61,48.26,6666.67,3000,2000,24.61,48.26,600,300,21.3371,32.0057,0,92.9533,129.985,130.033,24.43,49.0717,1778.1,24.5377,11.0242,300,15,129.96,129.995,24.1183,47.94,500,14,35.5619,0.31,0.690188,-17.7834,51.8928,6.36926
3907,21480,98,600,200,0.3,59.96,139.93,130.007,24.61,48.32,6666.67,3000,2000,24.61,48.32,600,300,19.1086,28.6629,0,92.2,130.02,130,24.41,49.03,1592.38,21.9749,9.87276,300,15,129.97,130.023,24.09,48.04,500,14,31.8476,0.31,0.705215,-16.3333,53.2478,6.13334
3968,21825,100,600,200,0.3,59.985,140,129.988,24.59,48.305,6666.67,3000,2000,24.59,48.305,600,300,16.7429,25.1143,0,89.975,129.985,130.015,24.4,49.13,1395.24,19.2543,8.65048,300,15,130.025,129.9,24.075,48.245,500,14,27.9048,0.31,0.710982,-16.2935,63.6706,7.37586
4029,22150,101,600,200,0.3,59.9967,139.993,130.017,24.57,48.44,6666.67,3000,2000,24.57,48.44,600,300,14.5143,21.7714,0,92.2933,130.007,130.007,24.4,49.08,1209.52,16.6914,7.49905,300,15,129.993,130.013,24.06,48.2533,500,14,24.1905,0.31,0.723068,-16.06,55.8306,6.48333
4091,22500,103,600,200,0.3,59.99,140.03,130,24.56,48.42,6666.67,3000,2000,24.56,48.42,600,300,12.1143,18.1714,0,89.9,130,129.95,24.39,48.99,1009.52,13.9314,6.25905,300,15,129.99,130.003,24.04,48.35,500,14,20.1905,0.31,0.722785,-14.1645,65.694,6.7257
4152,22825,104,600,200,0.3,59.9933,140.033,129.972,24.56,48.32,6666.67,3000,2000,24.56,48.32,600,300,9.88571,14.8286,0,89.9467,129.968,130.083,24.37,49.085,823.81,11.3686,5.10762,300,15,129.992,129.973,24.03,48.48,500,14,16.4762,0.31,0.731552,-14.9017,59.1342,6.44642
4213,23170,106,600,200,0.3,60.0267,139.983,129.997,24.55,48.46,6666.67,3000,2000,24.55,48.46,600,300,7.52,11.28,0,90.9867,129.99,129.993,24.37,48.99,626.667,8.648,3.88533,300,15,129.99,129.983,24.02,48.49,500,14,12.5333,0.31,0.716952,-11.3196,61.061,4.95547
4274,23495,107,600,200,0.3,60.0083,140.002,129.99,24.5483,48.55,6666.67,3000,2000,24.5483,48.55,600,300,5.29143,7.93714,0,92.565,129.988,129.997,24.36,48.9967,440.952,6.08514,2.7339,300,15,129.993,130.055,24,48.58,500,14,8.81905,0.31,0.738326,-11.1921,59.1684,4.889346
4335,23840,109,600,200,0.3,60.01,140.003,130.01,24.5467,48.69,6666.67,3000,2000,24.5467,48.69,600,300,5.76,16.64,0,93.3133,130.037,130.04,24.3533,49.21,746.667,10.624,4.30933,300,15,130.017,130.03,23.97,48.7467,500,14,14.9333,0.288571,0.669604,-9.64166,40.9279,2.64234
4396,24165,110,600,200,0.3,59.925,139.975,129.987,24.545,48.6,6666.67,3000,2000,24.545,48.6,600,300,15.4343,61.7371,0,90.145,129.98,129.995,24.34,49.045,2572.38,37.0423,14.4053,300,15,129.97,129.955,23.955,48.78,500,14,51.4476,0.28,0.719676,-12.3337,63.2756,5.61652
4457,24510,112,600,200,0.3,60.02,139.99,129.99,24.54,48.55,6666.67,3000,2000,24.54,48.55,600,300,14.2514,57.0057,0,90.83,130.02,130.06,24.34,49.06,2375.24,34.2034,13.3013,300,15,130.01,129.93,23.94,48.85,500,14,47.5048,0.28,0.674985,-17.048,45.6952,5.25822
4518,24835,113,600,200,0.3,60.0033,140.005,130.01,24.53,48.48,6666.67,3000,2000,24.53,48.48,600,300,13.1371,52.5486,0,90.18,130.013,130.025,24.37,48.9967,2189.52,31.5291,12.2613,300,15,130.012,129.927,23.9317,48.94,500,14,43.7905,0.28,0.676292,-17.2814,42.3304,4.94727
4579,25180,115,600,200,0.3,59.9933,139.997,129.987,24.51,48.55,6666.67,3000,2000,24.51,48.55,600,300,11.9543,47.8171,0,92.5067,130,130.04,24.37,49.13,1992.38,28.6903,11.1573,300,15,130,129.987,23.92,49.01,500,14,39.8476,0.28,0.671184,-16.8383,43.1777,4.87976
4640,25525,117,600,200,0.3,60.0017,139.99,130.015,24.5083,48.715,6666.67,3000,2000,24.5083,48.715,600,300,10.7714,43.0857,0,91.3217,129.973,129.985,24.35,48.98,1795.24,25.8514,10.0533,300,15,130.003,129.997,23.92,49.105,500,14,35.9048,0.28,0.675707,-17.9019,43.2454,5.23116
4701,25850,118,600,200,0.3,59.99,140,130.01,24.51,48.8067,6666.67,3000,2000,24.51,48.8067,600,300,9.65714,38.6286,0,92.97,130,129.917,24.34,49.03,1609.52,23.1771,9.01333,300,15,129.99,130.03,23.9,49.18,500,14,32.1905,0.28,0.704036,-17.4552,57.3494,7.0477
4762,26195,120,600,200,0.3,60.03,139.982,130.005,24.5083,48.82,6666.67,3000,2000,24.5083,48.82,600,300,8.47429,33.8971,0,90.36,129.983,129.98,24.35,49.13,1412.38,20.3383,7.90933,300,15,130.003,129.96,23.89,49.25,500,14,28.2476,0.28,0.700842,-16.2889,55.9214,6.38397
4823,26520,121,600,200,0.3,60.01,140.01,129.99,24.49,48.99,6666.67,3000,2000,24.49,48.99,600,300,7.36,29.44,0,93.29,129.96,130.07,24.37,49.22,1226.67,17.664,6.86933,300,15,129.99,130.017,23.88,49.31,500,14,24.5333,0.28,0.714034,-16.4216,54.0363,6.33608
4884,26865,123,600,200,0.3,59.97,139.995,130.02,24.49,49.09,6666.67,3000,2000,24.49,49.09,600,300,6.17714,24.7086,0,90.45,129.98,129.98,24.38,49.305,1029.52,14.8251,5.76533,300,15,129.97,130.028,23.87,49.34,500,14,20.5905,0.28,0.7415,-14.6106,60.7382,6.58022
4945,27190,124,600,200,0.3,59.98,139.99,130.003,24.4933,49.15,6666.67,3000,2000,24.4933,49.15,600,300,5.06286,20.2514,0,90.3767,130.023,130.033,24.42,49.39,843.81,12.1509,4.72533,300,15,130.02,129.92,23.84,49.31,500,14,16.8762,0.28,0.226036,-12.1868,24.5844,0.677213
5006,27535,126,600,200,0.3,59.98,140.017,129.98,24.5,49.15,6666.67,3000,2000,24.5,49.15,600,300,3.88,15.52,0,90.105,130.017,130.015,24.46,49.42,646.667,9.312,3.62133,300,15,130.023,129.965,23.84,49.38,500,14,12.9333,0.28,0.741677,-13.2878,59.8073,5.89414
5067,27860,127,600,200,0.3,59.9567,139.98,129.99,24.49,49.21,6666.67,3000,2000,24.49,49.21,600,300,2.76571,11.0629,0,90.15,130.03,130.057,24.4867,49.59,460.952,6.63771,2.58133,300,15,130.013,130.03,23.83,49.41,500,14,9.21905,0.28,0.743749,-12.5917,57.614,5.3956
5128,28205,129,600,200,0.3,60.0483,140.01,130,24.49,49.225,6666.67,3000,2000,24.49,49.225,600,300,1.6,8.24,0,89.8967,129.983,129.96,24.49,49.6733,328,4.76,1.8,300,15,130.047,129.98,23.83,49.38,500,14,6.56,0.27439,0.72645,-11.7132,57.1255,4.86083
5189,28530,130,600,200,0.3,59.97,140.03,130,24.48,49.29,6666.67,3000,2000,24.48,49.29,600,300,0,77.7714,0,90.57,130,130.02,24.49,49.75,2592.38,38.8857,12.9619,300,15,129.99,130.02,23.86,49.34,500,14,51.8476,0.25,0.722903,-11.2761,54.2033,4.41839
5250,28875,132,600,200,0.3,59.975,140.01,130.003,24.47,49.335,6666.67,3000,2000,24.47,49.335,600,300,0,71.8571,0,90.065,130,130.02,24.48,49.72,2395.24,35.9286,11.9762,300,15,130.005,130.025,23.88,49.31,500,14,47.9048,0.25,0.648258,-13.8671,37.4372,3.36541
5311,29200,133,600,200,0.3,59.97,140.057,129.987,24.46,49.39,6666.67,3000,2000,24.46,49.39,600,300,0,66.2857,0,90.4767,130.027,130.013,24.4767,49.72,2209.52,33.1429,11.0476,300,15,130.01,130.137,23.8933,49.31,500,14,44.1905,0.25,0.673873,-17.7494,44.715,5.34828
5373,29550,135,600,200,0.3,60,139.99,129.997,24.45,49.45,6666.67,3000,2000,24.45,49.45,600,300,0,60.2857,0,90,130,130.03,24.46,49.75,2009.52,30.1429,10.0476,300,15,130.08,129.953,23.92,49.25,500,14,40.1905,0.25,0.669952,-16.3355,43.4099,4.75077
5434,29875,136,600,200,0.3,60.0117,139.978,130,24.4517,49.55,6666.67,3000,2000,24.4517,49.55,600,300,0,54.7143,0,92.2567,129.963,129.943,24.45,49.72,1823.81,27.3571,9.11905,300,15,129.997,130.007,23.97,49.295,500,14,36.4762,0.25,0.720023,-17.0726,46.7324,5.74464
5495,30220,138,600,200,0.3,59.9833,139.997,129.99,24.4533,49.52,6666.67,3000,2000,24.4533,49.52,600,300,0,48.8,0,93.5233,130.003,130.007,24.42,49.71,1626.67,24.4,8.13333,300,15,129.97,129.98,24.02,49.17,500,14,32.5333,0.25,0.682243,-17.3361,51.7555,6.12134
5556,30545,139,600,200,0.3,59.95,139.973,130.01,24.45,49.55,6666.67,3000,2000,24.45,49.55,600,300,0,43.2286,0,89.865,130,129.988,24.4283,49.69,1440.95,21.6143,7.20476,300,15,129.997,129.995,24.03,49.07,500,14,28.819,0.25,0.70074,-16.9264,54.7844,6.49797
5617,30890,141,600,200,0.3,59.98,139.97,130.01,24.47,49.45,6666.67,3000,2000,24.47,49.45,600,300,0,37.3143,0,90.5133,129.99,130,24.4,49.72,1243.81,18.6571,6.21905,300,15,129.993,130,24.04,49.03,500,14,24.8762,0.25,0.707081,-16.6953,59.2329,6.9924
5678,31215,142,600,200,0.3,60.01,140.005,130.017,24.48,49.39,6666.67,3000,2000,24.48,49.39,600,300,0,31.7429,0,92.62,130.035,130.005,24.385,49.75,1058.1,15.8714,5.29048,300,15,129.97,130.008,24.06,49,500,14,21.1619,0.25,0.717865,-15.6482,61.5954,6.91917
5739,31560,144,600,200,0.3,60,139.99,129.973,24.49,49.45,6666.67,3000,2000,24.49,49.45,600,300,0,25.8286,0,90.51,129.99,130,24.37,49.75,860.952,12.9143,4.30476,300,15,129.98,130.003,24.07,48.93,500,14,17.219,0.25,0.723314,-13.7885,63.3063,6.31379
5800,31905,146,600,200,0.3,60,139.975,130.005,24.51,49.43,6666.67,3000,2000,24.51,49.43,600,300,0,19.9143,0,91.795,130.02,130.02,24.37,49.72,663.81,9.95714,3.31905,300,15,130.01,129.983,24.08,48.84,500,14,13.2762,0.25,0.697552,-13.2741,61.0564,5.65344
5861,32230,147,600,200,0.3,59.9833,139.993,129.99,24.5067,49.35,6666.67,3000,2000,24.5067,49.35,600,300,0,14.3429,0,92.6667,129.993,130.013,24.37,49.95,478.095,7.17143,2.39048,300,15,129.977,130.007,24.09,48.84,500,14,9.5619,0.25,0.719943,-12.34,53.6456,4.76592
5922,32575,149,600,200,0.3,59.9633,139.963,130.03,24.52,49.295,6666.67,3000,2000,24.52,49.295,600,300,0,8.42857,0,89.81,130.015,129.977,24.38,49.94,280.952,4.21429,1.40476,300,15,129.963,129.992,24.09,48.8583,500,14,5.61905,0.25,0.712769,-10.8668,54.45,4.21742
5983,32900,150,600,200,0.3,59.9833,139.993,130.02,24.52,49.09,6666.67,3000,2000,24.52,49.09,600,300,0.952381,39.0476,0,91.32,130.027,130.003,24.38,49.8433,1333.33,19.9048,6.7619,300,15,130.013,130.01,24.07,48.87,500,14,26.6667,0.253571,0.22275,-9.14559,26.3752,0.537312
6044,33245,152,600,200,0.3,59.99,140.067,129.99,24.5317,48.95,6666.67,3000,2000,24.5317,48.95,600,300,4.2381,35.7619,0,91.97,129.99,129.918,24.3783,49.72,1333.33,19.5762,7.09048,300,15,129.975,130.05,24.0717,48.87,500,14,26.6667,0.265893,0.744105,-13.0854,61.2314,5.96204
6105,33570,153,600,200,0.3,60.02,139.94,130.017,24.54,48.95,6666.67,3000,2000,24.54,48.95,600,300,7.33333,32.6667,0,91.71,130.01,129.98,24.4,49.75,1333.33,19.2667,7.4,300,15,130,130.017,24.07,48.8,500,14,26.6667,0.2775,0.523167,-15.5526,38.4243,3.12644
6166,33915,155,600,200,0.3,59.975,140.02,129.993,24.53,48.95,6666.67,3000,2000,24.53,48.95,600,300,10.619,29.381,0,94.04,129.975,130.01,24.41,49.705,1333.33,18.9381,7.72857,300,15,130.015,130.023,24.06,48.8,500,14,26.6667,0.289821,0.714869,-15.5317,61.1594,6.79059
6227,34240,156,600,200,0.3,60.0033,140.017,130.003,24.5167,48.95,6666.67,3000,2000,24.5167,48.95,600,300,13.7143,26.2857,0,90.31,130.003,130.017,24.4267,49.6767,1333.33,18.6286,8.0381,300,15,129.997,130.003,24.0667,48.8,500,14,26.6667,0.301429,0.708671,-15.9531,61.4676,6.94923
6288,34585,158,600,200,0.3,59.9983,139.99,129.992,24.5,48.89,6666.67,3000,2000,24.5,48.89,600,300,17,23,0,90.3,130.01,130.097,24.45,49.645,1333.33,18.3,8.36667,300,15,130,130,24.0683,48.77,500,14,26.6667,0.31375,0.709245,-16.0673,55.8839,6.36833
6349,34910,159,600,200,0.3,59.9567,140.01,130,24.48,48.99,6666.67,3000,2000,24.48,48.99,600,300,20.0952,19.9048,0,91.1067,130,130.04,24.48,49.6433,1333.33,17.9905,8.67619,300,15,130.003,129.95,24.07,48.8,500,14,26.6667,0.325357,0.7095527,-16.0077,56.5462,6.42269
6410,35255,161,600,200,0.3,59.9517,139.992,129.98,24.48,49.03,6666.67,3000,2000,24.48,49.03,600,300,23.381,16.619,0,91.57,129.955,130.083,24.51,49.465,1333.33,17.6619,9.00476,300,15,130.013,129.995,24.08,48.8333,500,14,26.6667,0.337679,0.735308,-16.4135,51.3425,6.19653
6471,35580,162,600,200,0.3,59.97,139.99,130.003,24.47,48.89,6666.67,3000,2000,24.47,48.89,600,300,26.4762,13.5238,0,90.5,129.99,130,24.54,49.45,1333.33,17.3524,9.31429,300,15,129.99,130.003,24.09,48.77,500,14,26.6667,0.349286,0.7198,-16.763,63.7157,7.68793
6532,35925,164,600,200,0.3,60.015,140.005,130.018,24.46,48.93,6666.67,3000,2000,24.46,48.93,600,300,29.7619,10.2381,0,90.885,130.005,130.04,24.54,49.41,1333.33,17.0238,9.64286,300,15,130.005,129.988,24.09,48.77,500,14,26.6667,0.361607,0.719066,-16.5046,63.481,7.53387
6593,36250,165,600,200,0.3,59.9567,139.957,130.007,24.47,48.93,6666.67,3000,2000,24.47,48.93,600,300,32.8571,7.14286,0,90.0267,129.947,129.997,24.54,49.41,1333.33,16.7143,9.95238,300,15,129.99,129.997,24.09,48.8,500,14,26.6667,0.373214,0.717621,-16.4386,64.3073,7.58614
6654,36595,167,600,200,0.3,59.99,139.998,129.99,24.46,48.89,6666.67,3000,2000,24.46,48.89,600,300,36.1429,3.85714,0,89.8017,129.993,130.018,24.52,49.51,1333.33,16.3857,10.281,300,15,129.995,130.012,24.09,48.84,500,14,26.6667,0.385536,0.716152,-17.0257,63.5847,7.75287
6715,36920,168,600,200,0.3,60,140.017,130,24.47,48.99,6666.67,3000,2000,24.47,48.99,600,300,39.2381,0.761905,0,90.4033,129.957,130,24.5767,49.47,1333.33,16.0762,10.5905,300,15,129.93,129.95,24.1067,48.9567,500,14,26.6667,0.397143,0.711809,-16.6567,59.2362,7.02329
6776,37265,170,600,200,0.3,59.98,140,130,24.47,48.93,6666.67,3000,2000,24.47,48.93,600,300,67.0529,0,11.8329,91.6983,130.002,130.042,24.56,49.35,2629.52,29.4638,23.1267,300,15,130.017,129.985,24.11,48.93,500,14,52.5905,0.43975,0.733076,-17.3527,48.8912,6.21936
6837,37590,171,600,200,0.3,60,140,130,24.47,48.86,6666.67,3000,2000,24.47,48.86,600,300,62.3171,0,10.9971,93.29,130.03,130.03,24.54,49.45,2443.81,27.3829,21.4933,300,15,129.99,130.017,24.12,48.93,500,14,48.8762,0.43975,0.693242,-18.6522,42.627,5.51188
6898,37935,173,600,200,0.3,60,139.995,130,24.46,48.86,6666.67,3000,2000,24.46,48.86,600,300,57.29,0,10.11,89.855,130.005,129.975,24.52,49.48,2246.67,25.1739,19.7594,300,15,129.975,130.01,24.13,49.06,500,14,44.9333,0.43975,0.700278,-17.4677,45.3745,5.55033
6959,38260,174,600,200,0.3,60.0167,140.023,130.003,24.45,48.87,6666.67,3000,2000,24.45,48.87,600,300,52.5543,0,9.27429,90.4767,130,129.987,24.5,49.54,2060.95,23.093,18.1261,300,15,129.983,129.967,24.13,49.03,500,14,41.219,0.43975,0.681479,-13.3199,38.9813,3.53841
7020,38605,176,600,200,0.3,60.0033,140.007,129.975,24.4283,48.885,6666.67,3000,2000,24.4283,48.885,600,300,47.5271,0,8.38714,91.435,130.007,129.977,24.4883,49.615,1863.81,20.884,16.3922,300,15,130.002,129.993,24.13,49.1233,500,14,37.2762,0.43975,0.711309,-18.2632,43.5937,5.66314
7081,38950,178,600,200,0.3,60.0033,139.983,130.007,24.42,48.9167,6666.67,3000,2000,24.42,48.9167,600,300,42.5,0,7.5,93.92,130,130.04,24.48,49.5967,1666.67,18.675,14.6583,300,15,129.967,129.987,24.13,49.23,500,14,33.3333,0.43975,0.716751,-18.3166,49.6639,6.52011
7142,39275,179,600,200,0.3,60.0217,139.982,129.98,24.41,48.83,6666.67,3000,2000,24.41,48.83,600,300,37.7643,0,6.66429,91.6967,129.985,130,24.53,49.51,1480.95,16.5941,13.025,300,15,130.017,129.94,24.1333,49.335,500,14,29.619,0.43975,0.711248,-16.7554,48.8855,5.82583
7203,39620,181,600,200,0.3,59.9967,140.013,130.02,24.4,48.86,6666.67,3000,2000,24.4,48.86,600,300,32.7371,0,5.77714,90.2567,130.01,129.973,24.5233,49.58,1283.81,14.3851,11.2911,300,15,130.01,129.99,24.16,49.46,500,14,25.6762,0.43975,0.720154,-16.4461,54.7404,6.4833
7264,39945,182,600,200,0.3,59.985,139.96,129.995,24.4,48.945,6666.67,3000,2000,24.4,48.945,600,300,28.0014,0,4.94143,92.3,129.99,130.015,24.555,49.465,1098.1,12.3042,9.65775,300,15,129.98,130.005,24.18,49.53,500,14,21.9619,0.43975,0.727113,-17.5341,52.0295,6.63339
7325,40290,184,600,200,0.3,60.02,139.99,129.997,24.4,48.86,6666.67,3000,2000,24.4,48.86,600,300,22.9743,0,4.05429,94.04,130,130,24.58,49.35,900.952,10.0952,7.92388,300,15,130.02,130.027,24.19,49.59,500,14,18.019,0.43975,0.717326,-16.2492,42.9837,5.01018
7386,40615,185,600,200,0.3,59.9683,139.957,129.992,24.4,48.865,6666.67,3000,2000,24.4,48.865,600,300,18.2386,0,3.21857,89.9583,130.008,130.053,24.5683,49.505,715.238,8.01424,6.29052,300,15,130,130.005,24.2,49.63,500,14,14.3048,0.43975,0.72578,-15.0588,51.6496,5.645
7447,40960,187,600,200,0.3,60.0333,140.017,130.01,24.4,48.88,6666.67,3000,2000,24.4,48.88,600,300,13.2114,0,2.33143,91.0567,130.01,129.997,24.53,49.59,518.095,5.80526,4.55665,300,15,130,130.037,24.2033,49.7,500,14,10.3619,0.43975,0.718264,-12.8124,55.1256,5.07305
7508,41285,188,600,200,0.3,60.0167,139.965,130.005,24.4,48.86,6666.67,3000,2000,24.4,48.86,600,300,8.47571,0,1.49571,94.43,129.998,129.957,24.51,49.71,332.381,3.72433,2.92329,300,15,129.978,129.92,24.22,49.6933,500,14,6.64762,0.43975,0.691174,-12.1463,48.6238,4.08208
7569,41630,190,600,200,0.3,60.03,140.063,130,24.39,48.86,6666.67,3000,2000,24.39,48.86,600,300,55.64,0,23.8457,92.34,130,130.107,24.52,49.5567,2649.52,27.5815,25.4089,300,15,129.99,129.98,24.23,49.73,500,14,52.9905,0.4795,0.364449,-10.5475,27.2196,1.046332
7630,41955,191,600,200,0.3,60,140,129.987,24.39,48.86,6666.67,3000,2000,24.39,48.86,600,300,51.74,0,22.1743,90.125,129.975,130.02,24.51,49.66,2463.81,25.6483,23.6279,300,15,130.005,130.013,24.235,49.59,500,14,49.2762,0.4795,0.722429,-16.7839,50.907,6.17255
7692,42305,193,600,200,0.3,59.9667,139.988,130.005,24.38,48.7417,6666.67,3000,2000,24.38,48.7417,600,300,47.54,0,20.3743,91.57,130.002,129.982,24.52,49.455,2263.81,23.5663,21.7099,300,15,129.995,130,24.24,49.555,500,14,45.2762,0.4795,0.7087,-12.8213,39.9768,3.63247
7753,42630,194,600,200,0.3,60.03,140.02,129.973,24.37,48.93,6666.67,3000,2000,24.37,48.93,600,300,43.64,0,18.7029,94.48,129.96,129.91,24.52,49.58,2078.1,21.633,19.9289,300,15,129.93,129.993,24.24,49.73,500,14,41.5619,0.4795,0.698573,-10.0473,39.4768,2.77078
7814,42975,196,600,200,0.3,60,139.99,130.007,24.385,49.16,6666.67,3000,2000,24.385,49.16,600,300,39.5,0,16.9286,90.21,130,129.995,24.54,49.495,1880.95,19.5807,18.0383,300,15,129.985,130.003,24.245,49.59,500,14,37.619,0.4795,0.708683,-13.7509,45.566,4.4404
7875,43300,197,600,200,0.3,59.9933,139.997,129.997,24.4233,49.2967,6666.67,3000,2000,24.4233,49.2967,600,300,35.6,0,15.2571,90.41,129.99,129.973,24.55,49.51,1695.24,17.6474,16.2573,300,15,130.027,129.977,24.24,49.53,500,14,33.9048,0.4795,0.706221,-13.3556,44.397,4.18752
7936,43645,199,600,200,0.3,60.0017,140.013,129.998,24.4883,49.2783,6666.67,3000,2000,24.4883,49.2783,600,300,31.46,0,13.4829,94.1683,130,130.043,24.53,49.5733,1498.1,15.5952,14.3667,300,15,129.983,129.86,24.23,49.4233,500,14,29.9619,0.4795,0.724168,-15.8111,49.5336,5.67156
7997,43970,200,600,200,0.3,60.0367,140.013,130.03,24.5367,49.1733,6666.67,3000,2000,24.5367,49.1733,600,300,27.56,0,11.8114,90.08,130.02,129.95,24.51,49.78,1312.38,13.6619,12.5857,300,15,130.007,130.09,24.22,49.36,500,14,26.2476,0.4795,0.698825,-14.7833,43.2412,4.46722
8058,44315,202,600,200,0.3,60.01,140.022,129.985,24.6,48.845,6666.67,3000,2000,24.6,48.845,600,300,23.42,0,10.0371,90.2183,130.008,129.948,24.51,49.6467,1115.24,11.6096,10.6951,300,15,130.028,130,24.2,49.36,500,14,22.3048,0.4795,0.719253,-15.4631,45.2783,5.0358
8120,44665,204,600,200,0.3,60.0067,140.062,130.008,24.63,48.75,6666.67,3000,2000,24.63,48.75,600,300,19.22,0,8.23714,92.4767,130.023,129.95,24.53,49.75,915.238,9.52763,8.77713,300,15,130.002,130.003,24.18,49.46,500,14,18.3048,0.4795,0.710361,-14.9838,46.9812,5.00064
8181,44990,205,600,200,0.3,60,140.007,130.01,24.66,49.2433,6666.67,3000,2000,24.66,49.2433,600,300,15.32,0,6.56571,91.05,129.99,129.97,24.53,49.58,729.524,7.59434,6.99613,300,15,129.997,130.01,24.18,49.44,500,14,14.5905,0.4795,0.720638,-14.6968,50.8947,5.39028
8242,45335,207,600,200,0.3,60.0117,139.992,130,24.6917,48.71,6666.67,3000,2000,24.6917,48.71,600,300,11.18,0,4.79143,93.3033,129.997,130.032,24.51,49.58,532.381,5.54209,5.10553,300,15,130.033,130.12,24.18,49.355,500,14,10.6476,0.4795,0.708311,-13.2073,50.6325,4.7366
8304,45665,208,600,200,0.3,59.9867,139.982,130.025,24.71,48.37,6666.67,3000,2000,24.71,48.37,600,300,7.22,0,3.09429,91.5583,130,130.007,24.51,49.615,343.81,3.57906,3.29713,300,15,129.98,129.875,24.18,49.33,500,14,6.87619,0.4795,0.708086,-12.111,51.2338,4.39362
8365,46010,210,600,200,0.3,60.0133,140.003,130,24.74,48.38,6666.67,3000,2000,24.74,48.38,600,300,39.3124,0,39.259,91.2867,129.993,130.033,24.49,49.73,2619.05,24.4928,27.8881,300,15,130.003,129.99,24.18,49.38,500,14,52.381,0.53241,0.661476,-10.1539,37.0025,2.48529
8426,46335,211,600,200,0.3,59.995,140.01,130.022,24.78,48.2,6666.67,3000,2000,24.78,48.2,600,300,37.1286,0,37.1286,91.39,129.995,130.04,24.49,49.765,2475.24,23.1435,26.3613,300,15,129.985,129.885,24.18,49.36,500,14,49.5048,0.5325,0.719814,-13.1098,49.5315,4.67409
8487,46680,213,600,200,0.3,59.93,139.99,130.003,24.78,47.92,6666.67,3000,2000,24.78,47.92,600,300,34.1714,0,34.1714,91.19,129.97,129.92,24.54,49.64,2278.1,21.3002,24.2617,300,15,130.01,129.997,24.18,49.26,500,14,45.5619,0.5325,0.702561,-14.0761,42.0225,4.15573
8548,47005,214,600,200,0.3,59.995,140.027,129.977,24.79,48.18,6666.67,3000,2000,24.79,48.18,600,300,31.3857,0,31.3857,93.6583,130.01,129.942,24.58,49.4167,2092.38,19.5638,22.2839,300,15,129.982,129.983,24.19,49.235,500,14,41.8476,0.5325,0.707591,-6.39887,40.9723,1.85514
8609,47350,216,600,200,0.3,59.97,140.043,130,24.8,48.0267,6666.67,3000,2000,24.8,48.0267,600,300,28.4286,0,28.4286,91.0467,129.977,130.117,24.61,49.5667,1895.24,17.7205,20.1843,300,15,130.003,129.997,24.21,49.16,500,14,37.9048,0.5325,0.722314,-10.5473,44.1947,3.36695
8670,47675,217,600,200,0.3,59.985,139.993,130,24.8,47.9917,6666.67,3000,2000,24.8,47.9917,600,300,25.6429,0,25.6429,90.415,129.987,130.008,24.66,49.45,1709.52,15.984,18.2064,300,15,129.973,130.005,24.22,49.06,500,14,34.1905,0.5325,0.712067,-6.61803,37.9942,1.79047
8731,48020,219,600,200,0.3,59.9833,140.003,129.99,24.81,48.38,6666.67,3000,2000,24.81,48.38,600,300,22.6857,0,22.6857,90.9567,130,130,24.67,49.5533,1512.38,14.1408,16.1069,300,15,130.003,129.97,24.22,48.96,500,14,30.2476,0.5325,0.714067,-8.21921,38.8993,2.28302
8792,48345,220,600,200,0.3,60,140,130.013,24.83,48.57,6666.67,3000,2000,24.83,48.57,600,300,19.9,0,19.9,92.435,129.995,129.96,24.66,49.76,1326.67,12.4043,14.129,300,15,129.98,129.967,24.23,48.96,500,14,26.5333,0.5325,0.712704,-9.47355,40.5503,2.73789
8853,48690,222,600,200,0.3,60,139.99,129.987,24.86,48.41,6666.67,3000,2000,24.86,48.41,600,300,16.9429,0,16.9429,93.4,130.01,130,24.62,49.98,1129.52,10.561,12.0294,300,15,129.98,129.983,24.23,48.96,500,14,22.5905,0.5325,0.607658,-11.0106,34.5041,2.30857
8914,49015,223,600,200,0.3,59.9983,140.025,130,24.8983,48.17,6666.67,3000,2000,24.8983,48.17,600,300,14.1571,0,14.1571,89.4017,129.997,130.045,24.6183,50.0433,943.81,8.82462,10.0516,300,15,130.032,130.002,24.2283,48.96,500,14,18.8762,0.5325,0.716308,-8.36928,37.2401,2.23254
8975,49360,225,600,200,0.3,59.97,140.013,130,24.9,48.17,6666.67,3000,2000,24.9,48.17,600,300,11.2,0,11.2,91.7967,129.983,129.983,24.62,50.05,746.667,6.98133,7.952,300,15,130.03,130.03,24.2233,49,500,14,14.9333,0.5325,0.711712,-10.8441,41.1401,3.17514
9036,49685,226,600,200,0.3,60.05,139.96,130,24.9,48.17,6666.67,3000,2000,24.9,48.17,600,300,8.41429,0,8.41429,93.4883,129.993,129.965,24.62,50.18,560.952,5.2449,5.97414,300,15,130.005,130.05,24.22,49,500,14,11.219,0.5325,0.655926,-10.8121,35.3089,2.50408
9097,50030,228,600,200,0.3,60.0033,140.047,130,24.87,47.9,6666.67,3000,2000,24.87,47.9,600,300,5.45714,0,5.45714,89.8267,129.98,129.96,24.5867,50.4,363.81,3.40162,3.87457,300,15,129.993,129.88,24.23,49.03,500,14,7.27619,0.5325,0.662187,-10.6036,37.1124,2.60588
9158,50355,229,600,200,0.3,59.99,140.025,130.033,24.835,48.07,6666.67,3000,2000,24.835,48.07,600,300,16.4,0,47.4,93.025,130.025,129.99,24.61,50.395,2126.67,17.146,25.3873,300,15,129.97,129.998,24.235,49.06,500,14,42.5333,0.596881,0.434795,-8.59812,28.6144,1.06973
9219,50700,231,600,200,0.3,60.02,139.99,130,24.79,47.98,6666.67,3000,2000,24.79,47.98,600,300,18.7143,0,56,90.19,129.98,129.9,24.6,50.48,2490.48,19.9924,29.8171,300,15,129.99,129.987,24.23,49.09,500,14,49.8095,0.598623,0.667246,-8.44513,35.6007,2.00609
9281,51050,233,600,200,0.3,59.9933,140.02,130,24.7267,48.0367,6666.67,3000,2000,24.7267,48.0367,600,300,17.2143,0,51.3333,90.44,130.007,130.003,24.55,50.5967,2284.92,18.3502,27.3483,300,15,130.033,130.13,24.23,49.14,500,14,45.6984,0.598451,0.711434,-4.43111,38.6562,1.218612
9342,51375,234,600,200,0.3,59.98,140,129.973,24.71,48.15,6666.67,3000,2000,24.71,48.15,600,300,15.8214,0,47,91.13,130.01,130.05,24.53,50.59,2094.05,16.8252,25.0557,300,15,129.985,129.913,24.23,49.09,500,14,41.881,0.59826,0.710663,-5.29327,41.2985,1.55354
9404,51725,236,600,200,0.3,60.0017,139.975,130.005,24.68,48.18,6666.67,3000,2000,24.68,48.18,600,300,14.3214,0,42.3333,90.0283,129.998,130.028,24.51,50.5767,1888.49,15.183,22.5868,300,15,130.008,129.98,24.2283,49.09,500,14,37.7698,0.598012,0.707642,-4.19899,35.2733,1.0481
9465,52050,237,600,200,0.3,60.05,140.05,129.99,24.64,48.26,6666.67,3000,2000,24.64,48.26,600,300,12.9286,0,38,91.44,129.99,130.05,24.53,50.61,1697.62,13.6581,20.2943,300,15,129.99,129.987,24.22,49.09,500,14,33.9524,0.597728,0.713742,-5.02676,42.8546,1.53754
9526,52395,239,600,200,0.3,60.015,140.01,129.992,24.61,48.35,6666.67,3000,2000,24.61,48.35,600,300,11.45,0,33.4,92.445,129.995,129.98,24.54,50.525,1495,12.0393,17.8607,300,15,130.01,130.003,24.22,49.13,500,14,29.9,0.597347,0.719283,-6.16679,43.4973,1.92939
9587,52720,240,600,200,0.3,59.9467,139.98,129.95,24.5767,48.58,6666.67,3000,2000,24.5767,48.58,600,300,10.0571,0,29.0667,93.1467,129.99,129.903,24.55,50.38,1304.13,10.5144,15.5681,300,15,129.983,129.997,24.2,49.16,500,14,26.0825,0.596879,0.710316,-4.96189,38.3385,1.35124
9648,53065,242,600,200,0.3,60.0017,140.018,130.012,24.55,48.65,6666.67,3000,2000,24.55,48.65,600,300,8.57857,0,24.4667,90.79,130.013,129.938,24.58,50.1167,1101.51,8.89565,13.1345,300,15,130.032,130.08,24.18,49.26,500,14,22.0302,0.596206,0.538696,-3.94681,27.0605,0.575341
9709,53390,243,600,200,0.3,60.01,140.003,129.96,24.53,48.69,6666.67,3000,2000,24.53,48.69,600,300,7.18571,0,20.1333,92.2267,129.987,130.003,24.62,49.9333,910.635,7.37073,10.842,300,15,130.023,130.09,24.1733,49.4167,500,14,18.2127,0.595297,0.718971,-5.67933,37.0975,1.51479
9770,53735,245,600,200,0.3,59.9767,139.982,130.02,24.5283,48.75,6666.67,3000,2000,24.5283,48.75,600,300,5.70714,0,15.5333,89.7017,129.988,129.942,24.66,49.7167,708.016,5.75197,8.40835,300,15,129.98,130.07,24.18,49.49,500,14,14.1603,0.593797,0.667887,-5.1157,29.6063,1.01156
9831,54060,246,600,200,0.3,59.97,139.97,130.003,24.51,48.78,6666.67,3000,2000,24.51,48.78,600,300,4.31429,0,11.2,91.25,130.02,129.99,24.66,49.84,517.143,4.22705,6.11581,300,15,129.93,130.08,24.15,49.53,500,14,10.3429,0.591308,0,-3.19319,0,0.412468
9894,54415,248,600,200,0.3,60.0267,139.997,129.965,24.49,48.78,6666.67,3000,2000,24.49,48.78,600,300,2.79286,0,6.46667,90.7167,130.015,129.995,24.67,49.59,308.651,2.56137,3.61165,300,15,130.022,130.01,24.1467,49.66,500,14,6.17302,0.585071,0.55151,-3.83341,26.9124,0.568972
9956,54745,249,600,200,0.3,59.9933,140.002,130.015,24.48,48.7933,6666.67,3000,2000,24.48,48.7933,600,300,2,0,59.1,91.71,130,130.017,24.6783,49.415,2036.67,13.999,26.7343,300,15,130.022,130.047,24.13,49.7,500,14,40.7333,0.656326,0,-4.58214,0,0.434419
10053,55290,252,600,200,0.3,60,139.99,130.007,24.45,48.86,6666.67,3000,2000,24.45,48.86,600,300,0,0,71.6,91.61,130.02,130,24.6,49.61,2386.67,15.9907,31.7427,300,15,130.01,130.02,24.15,49.73,500,14,47.7333,0.665,0.734648,-3.96592,34.1713,0.995601
10114,55615,253,600,200,0.3,60.0067,140.015,130.007,24.43,48.8967,6666.67,3000,2000,24.43,48.8967,600,300,0,0,66.0286,93.615,130.013,129.938,24.55,49.775,2200.95,14.7464,29.2727,300,15,130.013,130.01,24.16,49.73,500,14,44.019,0.665,0.718925,-3.15079,38.3982,0.869791
10175,55960,255,600,200,0.3,60.02,140.03,130.003,24.42,48.86,6666.67,3000,2000,24.42,48.86,600,300,0,0,60.1143,93.8033,130.003,130.037,24.5067,49.75,2003.81,13.4255,26.6507,300,15,129.973,130.087,24.1733,49.7,500,14,40.0762,0.665,0.714061,-2.67082,36.0992,0.688458
10236,56285,256,600,200,0.3,60.0767,139.973,129.995,24.3983,48.865,6666.67,3000,2000,24.3983,48.865,600,300,0,0,54.5429,90.6833,129.992,130.028,24.48,50.0067,1818.1,12.1812,24.1807,300,15,129.993,130.12,24.18,49.6933,500,14,36.3619,0.665,0.706666,-2.24293,39.3559,0.62379
10297,56630,258,600,200,0.3,60,140.02,130,24.39,48.96,6666.67,3000,2000,24.39,48.96,600,300,0,0,48.6286,90.6067,129.993,129.957,24.48,49.87,1620.95,10.8604,21.5587,300,15,129.98,130.1,24.18,49.59,500,14,32.419,0.665,0,-1.94748,0,0.478618
10358,56955,259,600,200,0.3,60,140.005,129.99,24.38,49.06,6666.67,3000,2000,24.38,49.06,600,300,0,0,43.0571,92.225,130,129.99,24.48,49.75,1435.24,9.6161,19.0887,300,15,130.02,129.958,24.16,49.645,500,14,28.7048,0.665,0,-1.25511,0,0.280536
10419,57300,261,600,200,0.3,59.96,140.05,130.007,24.38,48.93,6666.67,3000,2000,24.38,48.93,600,300,0,0,37.1429,94.51,130.03,129.94,24.48,49.72,1238.1,8.29524,16.4667,300,15,129.98,130.02,24.15,49.7,500,14,24.7619,0.665,0,-1.10135,0,0.125061
10480,57645,263,600,200,0.3,60,140.005,129.998,24.38,48.86,6666.67,3000,2000,24.38,48.86,600,300,0,0,31.2286,90.485,130.005,129.945,24.48,49.81,1040.95,6.97438,13.8447,300,15,130.025,129.905,24.16,49.575,500,14,20.819,0.665,0,-0.72732,0,0.0440055
10543,57980,264,600,200,0.3,60.0167,139.99,129.98,24.36,48.86,6666.67,3000,2000,24.36,48.86,600,300,0,0,25.4857,93.43,129.997,130.077,24.49,49.78,849.524,5.69181,11.2987,300,15,130.01,130.02,24.1533,49.53,500,14,16.9905,0.665,0,-0.676007,0,0.0991383
10605,58330,266,600,200,0.3,59.9967,140.003,130.01,24.35,48.99,6666.67,3000,2000,24.35,48.99,600,300,0,0,19.4857,89.7333,129.997,130.003,24.49,49.5533,649.524,4.35181,8.63867,300,15,130.027,129.957,24.16,49.46,500,14,12.9905,0.665,0,-0.703575,0,0.0397753
10667,58660,267,600,200,0.3,60.03,139.997,129.953,24.3467,49.0033,6666.67,3000,2000,24.3467,49.0033,600,300,0,0,13.8286,90.6033,129.963,130.043,24.5133,49.58,460.952,3.08838,6.13067,300,15,130.01,129.987,24.18,49.47,500,14,9.21905,0.665,0,-0.782113,0,0.0560562
10737,59050,269,600,200,0.3,59.9667,140.003,130.017,24.34,48.93,6666.67,3000,2000,24.34,48.93,600,300,0,0,16,92.8367,129.997,130.037,24.61,49.51,533.333,3.57333,7.09333,300,15,130,130.013,24.18,49.33,500,14,10.6667,0.665,0,-0.839911,0,0.0227795
10836,59585,271,600,200,0.3,60,140.193,129.985,24.35,48.96,6666.67,3000,2000,24.35,48.96,600,300,0,2.90566,37.0943,94.32,129.982,129.983,24.6283,49.4433,1333.33,9.73723,16.9294,300,15,129.935,130.03,24.18,49.355,500,14,26.6667,0.634854,0,-1.96721,0,0.249692
10909,59990,273,600,200,0.3,60.0033,139.977,130.03,24.35,48.84,6666.67,3000,2000,24.35,48.84,600,300,0,5.96226,34.0377,89.82,129.973,130.033,24.57,49.4367,1333.33,10.5829,16.0838,300,15,129.993,130.01,24.17,49.35,500,14,26.6667,0.603142,0,-1.31681,0,0.28846
10970,60335,275,600,200,0.3,59.9933,140.015,129.995,24.36,48.835,6666.67,3000,2000,24.36,48.835,600,300,0,8.56604,31.434,90.4583,129.993,130.015,24.54,49.4383,1333.33,11.3033,15.3634,300,15,130.04,129.855,24.18,49.155,500,14,26.6667,0.576127,0,-0.726297,0,0.1220479
11032,60665,276,600,200,0.3,60.025,140.027,130,24.39,48.83,6666.67,3000,2000,24.39,48.83,600,300,0,11.0566,28.9434,91.445,130,129.888,24.5183,49.41,1333.33,11.9923,14.6743,300,15,130.02,129.995,24.18,48.93,500,14,26.6667,0.550288,0,-1.02421,0,0.224908
11093,61010,278,600,200,0.3,60.0133,139.97,130,24.41,48.7,6666.67,3000,2000,24.41,48.7,600,300,0,13.6604,26.3396,93.4433,129.987,130.003,24.49,49.5567,1333.33,12.7127,13.954,300,15,130,129.95,24.18,48.8133,500,14,26.6667,0.523274,0,-1.08804,0,0.224492
11154,61335,279,600,200,0.3,59.99,140.015,129.98,24.43,48.645,6666.67,3000,2000,24.43,48.645,600,300,0,16.1132,23.8868,92.93,130.005,130.04,24.49,49.72,1333.33,13.3913,13.2753,300,15,129.98,130.147,24.18,48.72,500,14,26.6667,0.497825,0,-1.77892,0,0.396565
11216,61685,281,600,200,0.3,60.0517,140.028,129.985,24.42,48.485,6666.67,3000,2000,24.42,48.485,600,300,0,18.7547,21.2453,91.2017,129.985,129.975,24.49,49.775,1333.33,14.1221,12.5445,300,15,130.027,130.025,24.1717,48.7,500,14,26.6667,0.47042,0.74327,-5.45182,37.6026,1.52372
11277,62010,282,600,200,0.3,60.02,139.98,130,24.42,48.56,6666.67,3000,2000,24.42,48.56,600,300,0,21.2075,18.7925,89.73,129.99,130.07,24.5,49.78,1333.33,14.8008,11.8659,300,15,129.97,130.02,24.18,48.57,500,14,26.6667,0.444972,0.729636,-8.84619,40.8481,2.63654
11339,62360,284,600,200,0.3,60.0067,139.98,130.03,24.4233,48.42,6666.67,3000,2000,24.4233,48.42,600,300,0,23.8491,16.1509,90.1667,130.003,129.94,24.49,49.9233,1333.33,15.5316,11.1351,300,15,130.01,130,24.18,48.5133,500,14,26.6667,0.417566,0.730697,-11.7743,46.7171,4.01928
11400,62705,286,600,200,0.3,59.995,139.998,129.98,24.42,48.5017,6666.67,3000,2000,24.42,48.5017,600,300,0,26.4528,13.5472,92.2967,129.99,129.978,24.5017,49.7217,1333.33,16.2519,10.4147,300,15,130.012,129.93,24.16,48.5,500,14,26.6667,0.390552,0.737882,-12.9616,46.7245,4.46878
11461,63030,287,600,200,0.3,60,139.99,129.993,24.42,48.56,6666.67,3000,2000,24.42,48.56,600,300,0,28.9057,11.0943,91.25,129.99,129.99,24.54,49.75,1333.33,16.9306,9.7361,300,15,130.04,130.077,24.16,48.54,500,14,26.6667,0.365104,0.715795,-14.0315,62.0804,6.23517
11522,63375,289,600,200,0.3,59.995,140.01,130.005,24.44,48.46,6666.67,3000,2000,24.44,48.46,600,300,0,31.5094,8.49057,89.735,130.015,130.02,24.6,49.41,1333.33,17.6509,9.01572,300,15,130.01,129.903,24.15,48.585,500,14,26.6667,0.33809,0.722048,-14.5744,53.141,5.59223
11584,63705,290,600,200,0.3,59.98,140.045,129.978,24.45,48.6,6666.67,3000,2000,24.45,48.6,600,300,0,34,6,91.76,130.01,130.055,24.58,49.795,1333.33,18.34,8.32667,300,15,130.015,130.095,24.15,48.7,500,14,26.6667,0.31225,0.74114,-15.4094,62.4807,7.13562
11645,64050,292,600,200,0.3,59.97,140.01,130.003,24.46,48.4,6666.67,3000,2000,24.46,48.4,600,300,0,36.6038,3.39623,92.33,129.98,129.98,24.56,49.75,1333.33,19.0604,7.60629,300,15,130,129.973,24.15,48.74,500,14,26.6667,0.285236,0.507029,-14.7019,37.9271,2.8272
11705,64370,293,600,200,0.3,59.9733,140.17,130.01,24.4833,48.51,6666.67,3000,2000,24.4833,48.51,600,300,0,39.0189,0.981132,90.3567,129.98,129.9,24.5333,50.1367,1333.33,19.7286,6.93811,300,15,130.007,130,24.1367,48.77,500,14,26.6667,0.260179,0.727594,-15.7119,66.5899,7.6125